#  Scan CV
#  Measurement Settings:
#  Power supply voltage limit:      2.10E+01 V
#  Power supply current limit:      5.00E-04 A
#  LCR measurement voltage:         5.01E-01 V
#  LCR measurement frequency:          5E+04 Hz
#  Voltage Delay:                      20.00 s
#  Channel Delay:                       0.20 s
#  Probecard temperature:               22.7 C
#  Switchcard temperature:              23.4 C
#  Switchcard measurement setting:  CV
#  Switchcard display setting:      OFF
# 
# 
#  Channel [-]	R [kOhm]	X [kOhm]
# 
1	1.29366E+04	-5.09260E+03
2	1.29606E+04	-5.06018E+03
3	1.28821E+04	-5.13892E+03
4	1.28856E+04	-5.13305E+03
5	1.29853E+04	-5.03148E+03
6	1.29835E+04	-5.01765E+03
7	1.29234E+04	-5.11992E+03
8	1.28344E+04	-5.17903E+03
9	1.28605E+04	-5.16207E+03
1	1.29465E+04	-5.12166E+03
11	1.28855E+04	-5.11440E+03
12	1.29085E+04	-5.12119E+03
13	1.28846E+04	-5.09359E+03
14	1.28469E+04	-5.15035E+03
15	1.28440E+04	-5.13930E+03
16	1.27372E+04	-5.24717E+03
17	1.28004E+04	-5.22879E+03
18	1.28798E+04	-5.14543E+03
19	1.28792E+04	-5.12402E+03
20	1.29047E+04	-5.12769E+03
21	1.29814E+04	-5.04040E+03
22	1.29298E+04	-5.09202E+03
23	1.28943E+04	-5.14306E+03
24	1.28332E+04	-5.20460E+03
25	1.27820E+04	-5.21556E+03
26	1.27760E+04	-5.24897E+03
27	1.27464E+04	-5.23320E+03
28	1.28356E+04	-5.18670E+03
29	1.28322E+04	-5.22872E+03
30	1.28462E+04	-5.17896E+03
31	1.29529E+04	-5.08152E+03
32	1.29103E+04	-5.12942E+03
33	1.29306E+04	-5.07528E+03
34	1.28969E+04	-5.11558E+03
35	1.28703E+04	-5.16604E+03
36	1.28279E+04	-5.16694E+03
37	1.27606E+04	-5.23915E+03
38	1.27862E+04	-5.21085E+03
39	1.27455E+04	-5.23851E+03
40	1.28055E+04	-5.20777E+03
41	1.28837E+04	-5.13689E+03
42	1.28788E+04	-5.17539E+03
43	1.28830E+04	-5.11299E+03
44	1.29837E+04	-5.02223E+03
45	1.29868E+04	-5.02341E+03
46	1.28979E+04	-5.09584E+03
47	1.28275E+04	-5.17268E+03
48	1.27872E+04	-5.20728E+03
49	1.27459E+04	-5.27282E+03
50	1.27429E+04	-5.22888E+03
51	1.28143E+04	-5.17639E+03
52	1.27778E+04	-5.22705E+03
53	1.28543E+04	-5.15969E+03
54	1.29512E+04	-5.06622E+03
55	1.29311E+04	-5.08796E+03
56	1.29379E+04	-5.09718E+03
57	1.29079E+04	-5.06871E+03
58	1.28490E+04	-5.16650E+03
59	1.28239E+04	-5.21501E+03
60	1.27492E+04	-5.23573E+03
61	1.27749E+04	-5.20214E+03
62	1.27322E+04	-5.23489E+03
63	1.28113E+04	-5.21143E+03
64	1.28949E+04	-5.13996E+03
65	1.28847E+04	-5.12829E+03
66	1.29128E+04	-5.11420E+03
67	1.29308E+04	-5.09254E+03
68	1.29782E+04	-5.06436E+03
69	1.28865E+04	-5.09112E+03
70	1.28415E+04	-5.19467E+03
71	1.27702E+04	-5.21644E+03
72	1.28041E+04	-5.22450E+03
73	1.27364E+04	-5.22049E+03
74	1.27879E+04	-5.20779E+03
75	1.28262E+04	-5.17265E+03
76	1.28426E+04	-5.15539E+03
77	1.29905E+04	-5.10369E+03
78	1.29633E+04	-5.07282E+03
79	1.29580E+04	-5.05308E+03
80	1.29232E+04	-5.07610E+03
81	1.29387E+04	-5.07865E+03
82	1.28265E+04	-5.17089E+03
83	1.27504E+04	-5.24912E+03
84	1.27625E+04	-5.24228E+03
85	1.27486E+04	-5.22852E+03
86	1.27788E+04	-5.18519E+03
87	1.28424E+04	-5.16717E+03
88	1.29681E+04	-5.09960E+03
89	1.29537E+04	-5.05986E+03
90	1.28867E+04	-5.10486E+03
91	1.29221E+04	-5.09114E+03
92	1.29443E+04	-5.14369E+03
93	1.28343E+04	-5.20335E+03
94	1.28469E+04	-5.13607E+03
95	1.27488E+04	-5.23154E+03
96	1.28240E+04	-5.18953E+03
97	1.27905E+04	-5.20170E+03
98	1.28425E+04	-5.18165E+03
99	1.28427E+04	-5.14851E+03
10	1.29244E+04	-5.09994E+03
101	1.29527E+04	-5.06448E+03
102	1.29837E+04	-5.04266E+03
103	1.29522E+04	-5.09426E+03
104	1.29307E+04	-5.07914E+03
105	1.28182E+04	-5.16683E+03
106	1.27521E+04	-5.19186E+03
107	1.27769E+04	-5.25226E+03
108	1.28385E+04	-5.17900E+03
109	1.27912E+04	-5.19274E+03
110	1.28597E+04	-5.17713E+03
111	1.28906E+04	-5.13048E+03
112	1.29611E+04	-5.11606E+03
113	1.29444E+04	-5.04778E+03
114	1.29895E+04	-5.02838E+03
115	1.29100E+04	-5.13306E+03
116	1.28422E+04	-5.15467E+03
117	1.28456E+04	-5.14591E+03
118	1.27510E+04	-5.25022E+03
119	1.28813E+04	-5.15096E+03
120	1.28366E+04	-5.19214E+03
121	1.29478E+04	-5.10234E+03
122	1.28688E+04	-5.13332E+03
123	1.29200E+04	-5.10187E+03
124	1.29398E+04	-5.10736E+03
125	1.29282E+04	-5.06999E+03
126	1.28356E+04	-5.17636E+03
127	1.29112E+04	-5.07341E+03
128	1.29221E+04	-5.08357E+03
129	1.29419E+04	-5.05644E+03
130	1.29630E+04	-5.06414E+03
131	1.29043E+04	-5.10012E+03
132	1.29153E+04	-5.08241E+03
133	1.30075E+04	-5.10141E+03
134	1.29495E+04	-5.06302E+03
135	1.29313E+04	-5.11709E+03
136	1.30025E+04	-5.61968E+03